Folder: experimental-data-process/Experimental data processing Python/Raman fit and plot

Note: README.md
## Bumjun Park's Repository

This is my personal repository to record projects related to experimental data processing and visualization.

File: thf with ceramic - 2.csv
TITLE,cer
DATA TYPE,RAMAN SPECTRUM
ORIGIN,JASCO
OWNER,
DATE,21/04/06
TIME,15:17:11
SPECTROMETER/DATA SYSTEM,
LOCALE,1041
RESOLUTION,
DELTAX,0.2
XUNITS,1/CM
YUNITS,INTENSITY
FIRSTX,   88.4787
LASTX, 1963.28
NPOINTS,    9375
FIRSTY,    26.01411
MAXY,   546.005
MINY,   -37.95501
XYDATA
88.4787,26.0141
94.8787,10.0099
101.2787,292.835
107.6787,132.947
114.0787,95.6387
120.4787,35.7926
126.8787,-15.8083
133.2787,21.6293
139.6787,26.3383
146.0787,24.9283
152.4787,36.3889
158.8787,20.9072
165.2787,35.997
171.6787,32.0639
178.0787,57.0749
184.4787,39.8323
190.8787,31.1895
197.2787,17.3536
203.6787,269.386
210.0787,23.6653
216.4787,24.1639
222.8787,214.906
229.2787,376.84
235.6787,316.701
242.0787,240.567
248.4787,249.624
254.8787,241.166
261.2787,212.18
267.6787,193.282
274.0787,178.117
280.4787,112.535
286.8787,36.6563
293.2787,25.6878
299.6787,38.1552
306.0787,100.609
312.4787,168.845
318.8787,174.964
325.2787,115.932
331.6787,66.8566
338.0787,101.55
344.4787,126.324
350.8787,145.857
357.2787,131.835
363.6787,77.8811
370.0787,39.3609
376.4787,34.7641
382.8787,37.3106
389.2787,25.1499
395.6787,19.9317
402.0787,31.5901
408.4787,28.9802
414.8787,57.7079
421.2787,92.7834
427.6787,195.206
434.0787,340.443
440.4787,468.668
446.8787,430.339
453.2787,355.772
459.6787,239.976
466.0787,150.738
472.4787,72.6139
478.8787,46.936
485.2787,37.2632
491.6787,27.9302
498.0787,29.9392
504.4787,32.0209
510.8787,25.8921
517.2787,51.5923
523.6787,69.3967
530.0787,134.075
536.4787,192.128
542.8787,280.734
549.2787,321.133
555.6787,351.48
562.0787,374.179
568.4787,381.312
574.8787,356.082
581.2787,352.486
587.6787,338.799
594.0787,347.894
600.4787,369.006
606.8787,380.161
613.2787,333.737
619.6787,276.149
626.0787,225.026
632.4787,158.971
638.8787,88.5189
645.2787,66.0223
651.6787,47.4128
658.0787,27.6555
664.4787,41.2997
670.8787,35.0505
677.2787,19.2599
683.6787,32.0864
690.0787,31.8815
696.4787,43.8302
702.8787,42.9482
709.2787,48.3562
715.6787,36.4328
722.0787,20.1363
728.4787,38.9664
734.8787,51.0445
741.2787,84.8808
747.6787,102.181
754.0787,58.5708
760.4787,42.1888
766.8787,30.5785
773.2787,47.6419
779.6787,60.8208
786.0787,71.8688
792.4787,111.704
798.8787,145.808
805.2787,163.935
811.6787,140.538
818.0787,143.75
824.4787,165.678
830.8787,183.663
837.2787,203.275
843.6787,254.089
850.0787,265.383
856.4787,168.934
862.8787,106.852
869.2787,54.7345
875.6787,35.8053
882.0787,30.0375
888.4787,28.1354
894.8787,35.7345
901.2787,55.8121
907.6787,41.3789
914.0787,29.4652
920.4787,25.4174
926.8787,32.2483
933.2787,52.9081
939.6787,41.3983
946.0787,20.4866
952.4787,40.3686
958.8787,65.5247
965.2787,95.2534
971.6787,92.6998
978.0787,132.421
984.4787,172.062
990.8787,163.96
997.2787,118.809
1003.68,101.506
1010.08,142.737
1016.48,133.703
1022.88,132.375
1029.28,97.6914
1035.68,55.0921
1042.08,52.907
1048.48,75.5529
1054.88,92.7022
1061.28,150.336
1067.68,181.783
1074.08,266.151
1080.48,307.539
1086.88,397.309
1093.28,439.899
1099.68,399.671
1106.08,355.088
1112.48,303.838
1118.88,276.267
1125.28,233.242
1131.68,211.204
1138.08,140.108
1144.48,75.6827
1150.88,28.4183
1157.28,35.9711
1163.68,28.7369
1170.08,19.9811
1176.48,23.8053
1182.88,45.2779
1189.28,21.9763
1195.68,48.9333
1202.08,113.931
1208.48,29.4207
1214.88,25.7461
1221.28,47.5463
1227.68,23.8732
1234.08,61.0588
1240.48,61.3471
1246.88,65.7813
1253.28,51.376
1259.68,51.5217
1266.08,71.1586
1272.48,111.213
1278.88,191.773
1285.28,220.826
1291.68,249.779
1298.08,261.265
1304.48,141.053
1310.88,65.2467
1317.28,40.4359
1323.68,28.962
1330.08,33.0323
1336.48,28.6488
1342.88,50.1917
1349.28,44.079
1355.68,55.5971
1362.08,34.3337
1368.48,35.3576
1374.88,34.7045
1381.28,25.9465
1387.68,26.5423
1394.08,47.3516
1400.48,40.4583
1406.88,63.1783
1413.28,42.0993
1419.68,38.2968
1426.08,117.032
1432.48,215.953
1438.88,310.06
1445.28,356.284
1451.68,355.892
1458.08,312.801
1464.48,310.595
1470.88,369.314
1477.28,290.391
1483.68,218.241
1490.08,92.5856
1496.48,42.9602
1502.88,35.5036
1509.28,23.621
1515.68,34.6036
1522.08,31.1079
1528.48,25.4505
1534.88,32.1454
1541.28,43.939
1547.68,51.068
1554.08,42.5345
1560.48,44.4445
1566.88,21.7956
1573.28,43.3333
1579.68,27.5554
1586.08,64.5618
1592.48,208.549
1598.88,283.802
1605.28,90.3317
1611.68,56.3668
1618.08,73.1852
1624.48,233.804
1630.88,482.493
1637.28,224.858
1643.68,53.9212
1650.08,40.4592
1656.48,32.5265
1662.88,37.5403
1669.28,33.1833
1675.68,37.7652
1682.08,38.07
1688.48,38.8946
1694.88,30.4581
1701.28,53.6519
1707.68,58.8129
1714.08,86.5592
1720.48,153.896
1726.88,115.567
1733.28,51.8201
1739.68,54.4074
1746.08,25.7237
1752.48,33.9855
1758.88,38.8921
1765.28,39.5553
1771.68,46.1541
1778.08,35.0166
1784.48,32.743
1790.88,33.2101
1797.28,38.5057
1803.68,42.35
1810.08,30.8666
1816.48,47.4643
1822.88,41.7017
1829.28,33.2602
1835.68,37.3706
1842.08,44.2578
1848.48,29.9951
1854.88,24.8508
1861.28,33.7768
1867.68,27.1101
1874.08,23.9658
1880.48,44.0027
1886.88,30.2128
1893.28,41.6762
1899.68,23.4729
1906.08,33.2915
1912.48,25.5055
1918.88,33.9429
1925.28,45.8619
1931.68,36.6328
1938.08,33.4599
1944.48,28.3383
1950.88,35.5233
1957.28,20.4961
1963.28,26.0227

##### Extended Information
[Comments]
Sample name,cer
Comment,
User
Division
Company,JASCO

[Detailed Information]
Creation date,4/6/2021 15:17

Data array type,Linear data array
Horizontal axis,Raman Shift [cm-1]
Vertical axis,Int.
Start,88.4787 cm-1
End,1963.28 cm-1
Data interval,0.2 cm-1
Data points,9375

[Measurement Information]
Model Name,NRS-5100
Serial Number,B002561420

Exposure,60 sec
Accumulation,4
Center wavenumber,1091.04 cm-1
Z position,57224.8 um
Binning Upper,111
Binning Lower,165
Valid Channel,1 - 1024
CCD,DU420_OE

Laser wavelength,532.10 nm
Monochromator,Single
Grating,1200 l/mm
Slit,25 x 1000 um
Aperture,d-4000 um
Notch filter,532.0 nm
Resolution,1.75 cm-1, 1.83 cm-1/pixel
Objective lens,UMPLFL 20 x
BS/DM,BS 30/70
1/2 plate,Not fitted
Polarization,Not fitted
Laser power,3.6 mW
Attenuator,Open
Cosmic ray reduction,On
Delete Fluorence,R=100
CCD temperature,-69.0 C
Shift,-3.60 cm-1