Folder: experimental-data-process/Experimental data processing Python/Raman fit and plot/thf with ceramic - 2 7 peaks

Note: README.md
## Bumjun Park's Repository

This is my personal repository to record projects related to experimental data processing and visualization.

File: thf with ceramic - 2 peak 1.csv
Wavenumber (cm-1),Intensity (a.u.)
749.061,0.00596417
749.205,0.00649277
749.349,0.00721205
749.493,0.00817887
749.637,0.0094625
749.782,0.0111457
749.926,0.0133254
750.07,0.0161127
750.214,0.0196318
750.358,0.024018
750.502,0.0294141
750.646,0.0359655
750.79,0.0438137
750.934,0.053088
751.078,0.0638962
751.222,0.0763142
751.366,0.0903751
751.51,0.106059
751.654,0.123282
751.798,0.141891
751.942,0.161659
752.086,0.182283
752.23,0.203385
752.374,0.224528
752.518,0.245222
752.662,0.264942
752.806,0.283154
752.951,0.299334
753.095,0.312994
753.239,0.323707
753.383,0.331128
753.527,0.335015
753.671,0.335239
753.815,0.331791
753.959,0.324788
754.103,0.314457
754.247,0.301133
754.391,0.285234
754.535,0.267241
754.679,0.247674
754.823,0.227071
754.967,0.205955
755.111,0.184823
755.255,0.16412
755.399,0.144231
755.543,0.125467
755.687,0.108066
755.831,0.0921906
755.975,0.0779308
756.12,0.0653145
756.264,0.0543144
756.408,0.0448594
756.552,0.0368449
756.696,0.0301437
756.84,0.0246153
756.984,0.0201145
757.128,0.0164977
757.272,0.0136286
757.416,0.0113814
757.56,0.00964344
757.704,0.00831606
757.848,0.00731479
757.992,0.00656877
758.136,0.00601971

File: thf with ceramic - 2 peak 2.csv
Wavenumber (cm-1),Intensity (a.u.)
742.291,0.0059869
742.435,0.00640938
742.579,0.00695532
742.723,0.00765615
742.867,0.00854982
743.011,0.00968179
743.155,0.011106
743.299,0.0128859
743.444,0.0150952
743.588,0.017819
743.732,0.0211541
743.876,0.0252097
744.02,0.0301076
744.164,0.0359813
744.308,0.0429762
744.452,0.0512475
744.596,0.0609586
744.74,0.0722784
744.884,0.0853776
745.028,0.100425
745.172,0.117582
745.316,0.136998
745.46,0.158803
745.604,0.183101
745.748,0.209964
745.892,0.239423
746.036,0.271465
746.18,0.306023
746.324,0.34297
746.468,0.38212
746.613,0.423219
746.757,0.465948
746.901,0.509924
747.045,0.554701
747.189,0.599775
747.333,0.644596
747.477,0.688576
747.621,0.731098
747.765,0.771534
747.909,0.809259
748.053,0.843665
748.197,0.87418
748.341,0.900281
748.485,0.921511
748.629,0.937491
748.773,0.947932
748.917,0.952644
749.061,0.951539
749.205,0.944638
749.349,0.932067
749.493,0.914057
749.637,0.89093
749.782,0.863096
749.926,0.831041
750.07,0.795306
750.214,0.75648
750.358,0.715178
750.502,0.67203
750.646,0.627659
750.79,0.582674
750.934,0.537651
751.078,0.493122
751.222,0.449569
751.366,0.407417
751.51,0.367023
751.654,0.328683
751.798,0.292623
751.942,0.259009
752.086,0.227942
752.23,0.199468
752.374,0.173585
752.518,0.150243
752.662,0.129358
752.806,0.110815
752.951,0.0944767
753.095,0.0801879
753.239,0.0677838
753.383,0.0570944
753.527,0.0479492
753.671,0.040181
753.815,0.0336291
753.959,0.0281421
754.103,0.0235789
754.247,0.0198102
754.391,0.0167192
754.535,0.0142014
754.679,0.0121643
754.823,0.0105275
754.967,0.00922107
755.111,0.00818537
755.255,0.00736979
755.399,0.00673181
755.543,0.00623608
755.687,0.00585342

File: thf with ceramic - 2 peak 3.csv
Wavenumber (cm-1),Intensity (a.u.)
741.283,0.00613856
741.427,0.00685588
741.571,0.00787594
741.715,0.00930068
741.859,0.0112549
742.003,0.0138869
742.147,0.0173666
742.291,0.0218818
742.435,0.0276301
742.579,0.0348081
742.723,0.0435962
742.867,0.0541405
743.011,0.0665317
743.155,0.0807845
743.299,0.0968168
743.444,0.114434
743.588,0.133317
743.732,0.153027
743.876,0.173006
744.02,0.192605
744.164,0.211114
744.308,0.2278
744.452,0.241958
744.596,0.252958
744.74,0.260291
744.884,0.263611
745.028,0.262756
745.172,0.25777
745.316,0.248889
745.46,0.236532
745.604,0.221262
745.748,0.203745
745.892,0.184703
746.036,0.164866
746.18,0.144923
746.324,0.125489
746.468,0.107076
746.613,0.0900741
746.757,0.0747506
746.901,0.0612529
747.045,0.0496214
747.189,0.0398078
747.333,0.0316963
747.477,0.0251244
747.621,0.019903
747.765,0.0158336
747.909,0.0127214
748.053,0.0103851
748.197,0.00866336
748.341,0.00741739
748.485,0.00653185
748.629,0.00591364

File: thf with ceramic - 2 peak 4.csv
Wavenumber (cm-1),Intensity (a.u.)
733.792,0.00572313
733.937,0.00599274
734.081,0.00632555
734.225,0.00673447
734.369,0.00723454
734.513,0.00784323
734.657,0.00858067
734.801,0.00946988
734.945,0.010537
735.089,0.0118116
735.233,0.0133268
735.377,0.0151193
735.521,0.0172298
735.665,0.0197025
735.809,0.0225856
735.953,0.0259308
736.097,0.0297932
736.241,0.0342305
736.385,0.0393029
736.529,0.0450722
736.673,0.0516011
736.817,0.0589515
736.961,0.0671844
737.106,0.0763576
737.25,0.0865246
737.394,0.097733
737.538,0.110023
737.682,0.123424
737.826,0.137956
737.97,0.153624
738.114,0.170421
738.258,0.188321
738.402,0.207281
738.546,0.227239
738.69,0.248115
738.834,0.269807
738.978,0.292193
739.122,0.315131
739.266,0.338461
739.41,0.362005
739.554,0.385568
739.698,0.408944
739.842,0.431913
739.986,0.454249
740.13,0.475724
740.275,0.496108
740.419,0.515173
740.563,0.532703
740.707,0.548492
740.851,0.56235
740.995,0.574107
741.139,0.583618
741.283,0.590762
741.427,0.595449
741.571,0.597618
741.715,0.597242
741.859,0.594325
742.003,0.588905
742.147,0.581052
742.291,0.570864
742.435,0.55847
742.579,0.544024
742.723,0.5277
742.867,0.509695
743.011,0.490217
743.155,0.469488
743.299,0.447735
743.444,0.425188
743.588,0.402075
743.732,0.378622
743.876,0.355044
744.02,0.331544
744.164,0.308311
744.308,0.28552
744.452,0.263325
744.596,0.241863
744.74,0.221248
744.884,0.201576
745.028,0.182924
745.172,0.165346
745.316,0.148881
745.46,0.133547
745.604,0.119351
745.748,0.10628
745.892,0.0943134
746.036,0.083417
746.18,0.0735486
746.324,0.0646588
746.468,0.0566925
746.613,0.049591
746.757,0.0432929
746.901,0.0377358
747.045,0.0328572
747.189,0.0285958
747.333,0.0248921
747.477,0.0216888
747.621,0.0189321
747.765,0.0165711
747.909,0.014559
748.053,0.0128524
748.197,0.0114119
748.341,0.0102018
748.485,0.00919011
748.629,0.00834828
748.773,0.00765111
748.917,0.00707645
749.061,0.00660499
749.205,0.00622001
749.349,0.0059071

File: thf with ceramic - 2 peak 5.csv
Wavenumber (cm-1),Intensity (a.u.)
733.072,0.00615873
733.216,0.0068383
733.36,0.0077909
733.504,0.00910716
733.648,0.0108997
733.792,0.0133054
733.937,0.0164869
734.081,0.0206321
734.225,0.0259524
734.369,0.032678
734.513,0.0410499
734.657,0.0513094
734.801,0.0636835
734.945,0.0783674
735.089,0.0955051
735.233,0.115168
735.377,0.137334
735.521,0.161868
735.665,0.18851
735.809,0.216861
735.953,0.246389
736.097,0.276432
736.241,0.306221
736.385,0.334909
736.529,0.361607
736.673,0.385427
736.817,0.405537
736.961,0.4212
737.106,0.431826
737.25,0.437006
737.394,0.436538
737.538,0.43044
737.682,0.41895
737.826,0.402508
737.97,0.381733
738.114,0.357379
738.258,0.330291
738.402,0.301361
738.546,0.271473
738.69,0.241465
738.834,0.212089
738.978,0.183986
739.122,0.157669
739.266,0.13351
739.41,0.111751
739.554,0.0925059
739.698,0.07578
739.842,0.0614885
739.986,0.0494777
740.13,0.0395457
740.275,0.031462
740.419,0.0249846
740.563,0.0198735
740.707,0.0159012
740.851,0.0128599
740.995,0.0105658
741.139,0.0088606
741.283,0.00761145
741.427,0.00670956
741.571,0.00606769

File: thf with ceramic - 2 peak 6.csv
Wavenumber (cm-1),Intensity (a.u.)
727.743,0.00592311
727.887,0.00627201
728.031,0.00670718
728.175,0.0072463
728.319,0.00790971
728.463,0.00872056
728.607,0.00970487
728.751,0.0108916
728.895,0.0123124
729.039,0.0140018
729.183,0.0159966
729.327,0.0183352
729.471,0.0210574
729.615,0.0242035
729.759,0.027813
729.903,0.0319238
730.047,0.0365706
730.191,0.0417837
730.335,0.0475872
730.479,0.0539975
730.623,0.0610216
730.768,0.0686556
730.912,0.0768832
731.056,0.0856744
731.2,0.0949846
731.344,0.104754
731.488,0.114907
731.632,0.125353
731.776,0.135988
731.92,0.146693
732.064,0.157337
732.208,0.167784
732.352,0.177888
732.496,0.187501
732.64,0.196477
732.784,0.204672
732.928,0.211951
733.072,0.218191
733.216,0.223283
733.36,0.227139
733.504,0.229688
733.648,0.230886
733.792,0.230709
733.937,0.229161
734.081,0.22627
734.225,0.222089
734.369,0.216692
734.513,0.210174
734.657,0.202648
734.801,0.194239
734.945,0.185086
735.089,0.175332
735.233,0.165126
735.377,0.154615
735.521,0.143941
735.665,0.133243
735.809,0.122646
735.953,0.112266
736.097,0.102203
736.241,0.092545
736.385,0.0833631
736.529,0.0747131
736.673,0.0666358
736.817,0.0591576
736.961,0.0522913
737.106,0.0460381
737.25,0.0403883
737.394,0.0353233
737.538,0.0308173
737.682,0.0268388
737.826,0.0233521
737.97,0.0203188
738.114,0.017699
738.258,0.0154526
738.402,0.01354
738.546,0.011923
738.69,0.0105655
738.834,0.00943375
738.978,0.00849667
739.122,0.00772609
739.266,0.00709672
739.41,0.00658615
739.554,0.00617475
739.698,0.00584546

File: thf with ceramic - 2 peak 7.csv
Wavenumber (cm-1),Intensity (a.u.)
726.302,0.00619999
726.446,0.00698832
726.59,0.00812562
726.734,0.00973405
726.878,0.0119636
727.022,0.014992
727.166,0.0190218
727.31,0.0242735
727.454,0.0309741
727.599,0.0393407
727.743,0.0495589
727.887,0.0617583
728.031,0.0759853
728.175,0.092177
728.319,0.110139
728.463,0.129531
728.607,0.149865
728.751,0.170512
728.895,0.190731
729.039,0.209709
729.183,0.226609
729.327,0.240637
729.471,0.251095
729.615,0.257447
729.759,0.259357
729.903,0.256725
730.047,0.249689
730.191,0.238621
730.335,0.224085
730.479,0.206797
730.623,0.187565
730.768,0.167225
730.912,0.14658
731.056,0.126358
731.2,0.107165
731.344,0.0894669
731.488,0.0735794
731.632,0.059675
731.776,0.0477974
731.92,0.0378852
732.064,0.0297982
732.208,0.0233438
732.352,0.0183024
732.496,0.0144469
732.64,0.011559
732.784,0.00943987
732.928,0.00791596
733.072,0.00684187
733.216,0.00609969

File: thf with ceramic - 2 sliced_fit.csv
Wavenumbers (cm^-1),Intensity (a.u.) fit
707.0,0.0328185
707.288,0.0328185
707.576,0.0328185
707.864,0.0328185
708.152,0.0328185
708.44,0.0328185
708.729,0.0328185
709.017,0.0328185
709.305,0.0328185
709.593,0.0328185
709.881,0.0328185
710.169,0.0328185
710.457,0.0328185
710.745,0.0328185
711.033,0.0328185
711.321,0.0328185
711.609,0.0328185
711.898,0.0328185
712.186,0.0328185
712.474,0.0328185
712.762,0.0328185
713.05,0.0328185
713.338,0.0328185
713.626,0.0328185
713.914,0.0328185
714.202,0.0328185
714.49,0.0328185
714.778,0.0328185
715.067,0.0328185
715.355,0.0328185
715.643,0.0328185
715.931,0.0328185
716.219,0.0328185
716.507,0.0328185
716.795,0.0328185
717.083,0.0328185
717.371,0.0328185
717.659,0.0328185
717.947,0.0328185
718.236,0.0328185
718.524,0.0328185
718.812,0.0328185
719.1,0.0328185
719.388,0.0328185
719.676,0.0328185
719.964,0.0328185
720.252,0.0328185
720.54,0.0328185
720.828,0.0328185
721.116,0.0328185
721.405,0.0328185
721.693,0.0328185
721.981,0.0328185
722.269,0.0328185
722.557,0.0328185
722.845,0.0328185
723.133,0.0328185
723.421,0.0328185
723.709,0.0328186
723.997,0.0328188
724.285,0.0328196
724.574,0.032822
724.862,0.0328293
725.15,0.032851
725.438,0.0329121
725.726,0.0330742
726.014,0.033476
726.302,0.0344034
726.59,0.0363912
726.878,0.0403378
727.166,0.0475812
727.454,0.0598413
727.743,0.0789238
728.031,0.106134
728.319,0.141491
728.607,0.183012
728.895,0.226486
729.183,0.266048
729.471,0.295594
729.759,0.310612
730.047,0.309702
730.335,0.295115
730.623,0.272031
730.912,0.24691
731.2,0.225602
731.488,0.211952
731.776,0.20728
732.064,0.210695
732.352,0.219894
732.64,0.232051
732.928,0.244536
733.216,0.255367
733.504,0.263455
733.792,0.268708
734.081,0.272058
734.369,0.275383
734.657,0.281299
734.945,0.292746
735.233,0.312375
735.521,0.341793
735.809,0.380846
736.097,0.427181
736.385,0.476329
736.673,0.522418
736.961,0.559429
737.25,0.582672
737.538,0.590033
737.826,0.582569
738.114,0.564252
738.402,0.540935
738.69,0.518899
738.978,0.50343
739.266,0.497824
739.554,0.503008
739.842,0.517753
740.13,0.53928
740.419,0.564013
740.707,0.58829
740.995,0.608904
741.283,0.623467
741.571,0.63063
741.859,0.63019
742.147,0.623103
742.435,0.611372
742.723,0.597748
743.011,0.5852
743.299,0.576196
743.588,0.571967
743.876,0.572013
744.164,0.57416
744.452,0.575284
744.74,0.572571
745.028,0.564859
745.316,0.553522
745.604,0.542467
745.892,0.537193
746.18,0.543248
746.468,0.564642
746.757,0.602746
747.045,0.655936
747.333,0.719947
747.621,0.788708
747.909,0.855346
748.197,0.913135
748.485,0.956272
748.773,0.980443
749.061,0.983188
749.349,0.964065
749.637,0.92464
749.926,0.868291
750.214,0.799841
750.502,0.725055
750.79,0.650028
751.078,0.580516
751.366,0.521265
751.654,0.475424
751.942,0.44412
752.23,0.4263
752.518,0.418909
752.806,0.417413
753.095,0.416624
753.383,0.411665
753.671,0.398862
753.959,0.376372
754.247,0.344385
754.535,0.304884
754.823,0.26104
755.111,0.21645
755.399,0.174404
755.687,0.137362
755.975,0.106709
756.264,0.0827963
756.552,0.0651613
756.84,0.0528417
757.128,0.0446763
757.416,0.0395354
757.704,0.0364576
757.992,0.0347042
758.28,0.0337531
758.568,0.0332615
758.856,0.0330193
759.144,0.0329055
759.433,0.0328546
759.721,0.0328328
760.009,0.0328239
760.297,0.0328204
760.585,0.0328191
760.873,0.0328187
761.161,0.0328185
761.449,0.0328185
761.737,0.0328185
762.025,0.0328185
762.313,0.0328185
762.602,0.0328185
762.89,0.0328185
763.178,0.0328185
763.466,0.0328185
763.754,0.0328185
764.042,0.0328185
764.33,0.0328185
764.618,0.0328185
764.906,0.0328185
765.194,0.0328185
765.482,0.0328185
765.771,0.0328185
766.059,0.0328185
766.347,0.0328185
766.635,0.0328185
766.923,0.0328185
767.211,0.0328185
767.499,0.0328185
767.787,0.0328185
768.075,0.0328185
768.363,0.0328185
768.651,0.0328185
768.94,0.0328185
769.228,0.0328185
769.516,0.0328185
769.804,0.0328185
770.092,0.0328185
770.38,0.0328185
770.668,0.0328185
770.956,0.0328185
771.244,0.0328185
771.532,0.0328185
771.82,0.0328185
772.109,0.0328185
772.397,0.0328185
772.685,0.0328185
772.973,0.0328185
773.261,0.0328185
773.549,0.0328185
773.837,0.0328185
774.125,0.0328185
774.413,0.0328185
774.701,0.0328185
774.989,0.0328185
775.278,0.0328185
775.566,0.0328185
775.854,0.0328185
776.142,0.0328185
776.43,0.0328185
776.718,0.0328185
777.006,0.0328185
777.294,0.0328185
777.582,0.0328185
777.87,0.0328185
778.158,0.0328185
778.447,0.0328185
778.735,0.0328185
778.8787,0.0328185

File: thf with ceramic - 2 sliced_raw.csv
Wavenumbers (cm^-1),Intensity (a.u.) data,Intensity (a.u.) fit
727.0787,0.042274,0.0449306
727.2787,0.0455248,0.0516624
727.4787,0.053429,0.0611605
727.6787,0.0667671,0.0740249
727.8787,0.0860855,0.0907296
728.0787,0.110449,0.111492
728.2787,0.138346,0.13614
728.4787,0.168271,0.164005
728.6787,0.19871,0.193884
728.8787,0.228155,0.224083
729.0787,0.255096,0.252576
729.2787,0.278023,0.277246
729.4787,0.295426,0.296191
729.6787,0.305803,0.308028
729.8787,0.308541,0.31212
730.0787,0.304813,0.308703
730.2787,0.296,0.298849
730.4787,0.283487,0.284296
730.6787,0.268653,0.267173
730.8787,0.252883,0.249678
731.0787,0.237559,0.233781
731.2787,0.224062,0.220992
731.4787,0.213777,0.212244
731.6787,0.207992,0.207869
731.8787,0.206782,0.20767
732.0787,0.209354,0.211049
732.2787,0.214897,0.217159
732.4787,0.2226,0.225042
732.6787,0.231654,0.233757
732.8787,0.241246,0.242465
733.0787,0.250568,0.250493
733.2787,0.258808,0.257371
733.4787,0.265155,0.262855
733.6787,0.269108,0.266935
733.8787,0.271314,0.269842
734.0787,0.272691,0.272039
734.2787,0.274156,0.274201
734.4787,0.276623,0.277179
734.6787,0.28101,0.28194
734.8787,0.288234,0.28948
735.0787,0.29921,0.300719
735.2787,0.314855,0.316376
735.4787,0.336053,0.336843
735.6787,0.362632,0.362074
735.8787,0.393106,0.391511
736.0787,0.425906,0.424066
736.2787,0.459469,0.458172
736.4787,0.492225,0.491911
736.6787,0.522612,0.523202
736.8787,0.549061,0.550039
737.0787,0.570006,0.570737
737.2787,0.583881,0.584147
737.4787,0.589411,0.589815
737.6787,0.58737,0.588044
737.8787,0.5794,0.57986
738.0787,0.567144,0.56688
738.2787,0.552252,0.551108
738.4787,0.536368,0.534691
738.6787,0.521137,0.519669
738.8787,0.508208,0.507771
739.0787,0.499224,0.500254
739.2787,0.495827,0.497826
739.4787,0.498818,0.500639
739.6787,0.507216,0.508338
739.8787,0.519815,0.520163
740.0787,0.535408,0.535067
740.2787,0.552788,0.551842
740.4787,0.570747,0.569236
740.6787,0.588077,0.58605
740.8787,0.603573,0.601216
741.0787,0.616027,0.613854
741.2787,0.624308,0.623309
741.4787,0.628315,0.629178
741.6787,0.628702,0.631329
741.8787,0.626134,0.6299
742.0787,0.621281,0.625296
742.2787,0.614811,0.618167
742.4787,0.60739,0.609362
742.6787,0.599687,0.599859
742.8787,0.59237,0.590667
743.0787,0.586106,0.582708
743.2787,0.581383,0.576691
743.4787,0.578021,0.572995
743.6787,0.575689,0.571593
743.8787,0.574057,0.57203
744.0787,0.572793,0.573486
744.2787,0.571564,0.574911
744.4787,0.570041,0.575227
744.6787,0.567892,0.573561
744.8787,0.564785,0.569459
745.0787,0.560411,0.563046
745.2787,0.555105,0.555082
745.4787,0.549969,0.546915
745.6787,0.546145,0.540313
745.8787,0.544778,0.537227
746.0787,0.547011,0.539518
746.2787,0.55399,0.548695
746.4787,0.566856,0.56571
746.6787,0.586753,0.590841
746.8787,0.614827,0.62365
747.0787,0.651838,0.663043
747.2787,0.696129,0.707378
747.4787,0.745097,0.754616
747.6787,0.796139,0.802488
747.8787,0.846645,0.84866
748.0787,0.894012,0.890874
748.2787,0.935629,0.927074
748.4787,0.968902,0.955506
748.6787,0.99123,0.974797
748.8787,1.0,0.984003
749.0787,0.99418,0.982646
749.2787,0.975576,0.970728
749.4787,0.946336,0.948715
749.6787,0.908593,0.917514
749.8787,0.864473,0.878422
750.0787,0.816123,0.833059
750.2787,0.765684,0.78329
750.4787,0.715289,0.731124
750.6787,0.667074,0.678615
750.8787,0.623053,0.62775
751.0787,0.583845,0.58034
751.2787,0.549202,0.537914
751.4787,0.518864,0.501627
751.6787,0.492569,0.472183
751.8787,0.470057,0.44979
752.0787,0.451067,0.43414
752.2787,0.435337,0.424438
752.4787,0.422607,0.419464
752.6787,0.412616,0.417677
752.8787,0.404975,0.417353
753.0787,0.398916,0.416736
753.2787,0.3936,0.414201
753.4787,0.388188,0.4084
753.6787,0.381842,0.398374
753.8787,0.373721,0.383625
754.0787,0.362988,0.364138
754.2787,0.348803,0.340347
754.4787,0.330327,0.313057
754.6787,0.306772,0.283335
754.8787,0.278384,0.252383
755.0787,0.246395,0.221407
755.2787,0.212075,0.191513
755.4787,0.176691,0.163615
755.6787,0.141515,0.138388
755.8787,0.107812,0.116251
756.0787,0.0768564,0.0973752
756.2787,0.0499139,0.08172
756.4787,0.0282545,0.0690806
756.6787,0.0128942,0.0591403
756.8787,0.00365311,0.0515207
757.0787,0.0,0.0458254
757.2787,0.00140542,0.0416727
757.4787,0.00733602,0.038718
757.6787,0.0172614,0.0366658
757.8787,0.0306502,0.0352742
758.0787,0.046971,0.0343527
758.2787,0.0656924,0.0337566
758.4787,0.0862802,0.0333799
758.6787,0.108033,0.0331473
758.8787,0.130016,0.033007